trials.thisRepN,trials.thisTrialN,trials.thisN,trials.thisIndex,Fixation.started,key_resp.started,Fixation.stopped,key_resp.keys,key_resp.corr,key_resp.rt,key_resp.duration,tilt,participant,session,date,expName,psychopyVersion,frameRate
0,0,0,0,13.6653994,14.7007452,14.7038405,up,0,0.5906009,None,0,794647,1,2023-09-08_13h04.56.086,orientationdisctimination,2023.1.3,60.09889873
1,0,1,0,15.314729,16.3152606,16.3152606,down,1,0.6636173,None,-5,794647,1,2023-09-08_13h04.56.086,orientationdisctimination,2023.1.3,60.09889873
2,0,2,0,16.9988182,17.9992032,17.9992032,up,1,1.0601023,None,0,794647,1,2023-09-08_13h04.56.086,orientationdisctimination,2023.1.3,60.09889873
3,0,3,0,19.082628,20.0830829,20.0830829,down,1,0.7456314,None,-4,794647,1,2023-09-08_13h04.56.086,orientationdisctimination,2023.1.3,60.09889873
4,0,4,0,20.8498867,21.8504361,21.8504361,down,1,0.4095822,None,-5,794647,1,2023-09-08_13h04.56.086,orientationdisctimination,2023.1.3,60.09889873
5,0,5,0,22.2835559,23.2842049,23.2842049,down,1,0.5138808,None,-2,794647,1,2023-09-08_13h04.56.086,orientationdisctimination,2023.1.3,60.09889873
6,0,6,0,23.8173833,24.8176542,24.8176542,down,1,0.5192035,None,-2,794647,1,2023-09-08_13h04.56.086,orientationdisctimination,2023.1.3,60.09889873
7,0,7,0,25.3676301,26.3679921,26.3679921,up,1,0.6274576,None,0,794647,1,2023-09-08_13h04.56.086,orientationdisctimination,2023.1.3,60.09889873
8,0,8,0,27.0183108,28.0185017,28.0185017,down,1,0.7102101,None,-4,794647,1,2023-09-08_13h04.56.086,orientationdisctimination,2023.1.3,60.09889873
9,0,9,0,28.7521442,29.7523995,29.7523995,up,1,0.4682038,None,0,794647,1,2023-09-08_13h04.56.086,orientationdisctimination,2023.1.3,60.09889873
10,0,10,0,30.2524754,31.2528842,31.2528842,up,0,0.6213288,None,-2,794647,1,2023-09-08_13h04.56.086,orientationdisctimination,2023.1.3,60.09889873
11,0,11,0,31.9028921,32.9033471,32.9033471,up,1,0.4526728,None,0,794647,1,2023-09-08_13h04.56.086,orientationdisctimination,2023.1.3,60.09889873
12,0,12,0,33.3866162,34.3870046,34.3870046,up,1,0.7282116,None,0,794647,1,2023-09-08_13h04.56.086,orientationdisctimination,2023.1.3,60.09889873
13,0,13,0,35.1368698,36.1374619,36.1374619,down,1,0.6109814,None,-5,794647,1,2023-09-08_13h04.56.086,orientationdisctimination,2023.1.3,60.09889873
14,0,14,0,36.7709924,37.7711381,37.7711381,up,1,0.5561884,None,0,794647,1,2023-09-08_13h04.56.086,orientationdisctimination,2023.1.3,60.09889873
15,0,15,0,38.3547794,39.355089,39.355089,down,1,0.5251288,None,-3,794647,1,2023-09-08_13h04.56.086,orientationdisctimination,2023.1.3,60.09889873
16,0,16,0,39.905141,40.90556,40.90556,up,0,0.3917128,None,-5,794647,1,2023-09-08_13h04.56.086,orientationdisctimination,2023.1.3,60.09889873
17,0,17,0,41.3219686,42.3225631,42.3225631,up,1,0.5823505,None,0,794647,1,2023-09-08_13h04.56.086,orientationdisctimination,2023.1.3,60.09889873
18,0,18,0,42.9225892,43.9228693,43.9228693,down,1,0.5444795,None,-4,794647,1,2023-09-08_13h04.56.086,orientationdisctimination,2023.1.3,60.09889873
19,0,19,0,44.4896872,45.4900106,45.4900106,down,1,0.4400381,None,-5,794647,1,2023-09-08_13h04.56.086,orientationdisctimination,2023.1.3,60.09889873
20,0,20,0,45.9566159,46.9571285,46.9571285,up,1,0.7321184,None,0,794647,1,2023-09-08_13h04.56.086,orientationdisctimination,2023.1.3,60.09889873
21,0,21,0,47.7072476,48.7075291,48.7075291,down,1,0.5655387,None,-4,794647,1,2023-09-08_13h04.56.086,orientationdisctimination,2023.1.3,60.09889873
22,0,22,0,49.2909709,50.291388,50.291388,up,0,0.7821062,None,-3,794647,1,2023-09-08_13h04.56.086,orientationdisctimination,2023.1.3,60.09889873
23,0,23,0,51.0915337,52.091797,52.091797,down,1,0.4777555,None,-3,794647,1,2023-09-08_13h04.56.086,orientationdisctimination,2023.1.3,60.09889873
24,0,24,0,52.5919685,53.5922154,53.5922154,up,1,0.901779,None,0,794647,1,2023-09-08_13h04.56.086,orientationdisctimination,2023.1.3,60.09889873
25,0,25,0,54.5256079,55.5258888,55.5258888,up,0,1.103935,None,-2,794647,1,2023-09-08_13h04.56.086,orientationdisctimination,2023.1.3,60.09889873
26,0,26,0,56.6598178,57.6600296,57.6600296,down,1,0.8451818,None,-3,794647,1,2023-09-08_13h04.56.086,orientationdisctimination,2023.1.3,60.09889873
27,0,27,0,58.5265966,59.5270748,59.5270748,down,1,1.531307,None,-2,794647,1,2023-09-08_13h04.56.086,orientationdisctimination,2023.1.3,60.09889873
28,0,28,0,61.0774207,62.0776356,62.0776356,up,1,0.4978999,None,0,794647,1,2023-09-08_13h04.56.086,orientationdisctimination,2023.1.3,60.09889873
29,0,29,0,62.5945387,63.5949731,63.5949731,down,1,0.6151835,None,-5,794647,1,2023-09-08_13h04.56.086,orientationdisctimination,2023.1.3,60.09889873
30,0,30,0,64.2281113,65.2285562,65.2285562,up,0,0.7595107,None,-2,794647,1,2023-09-08_13h04.56.086,orientationdisctimination,2023.1.3,60.09889873
31,0,31,0,66.0121163,67.0124695,67.0124695,up,1,0.9848856,None,0,794647,1,2023-09-08_13h04.56.086,orientationdisctimination,2023.1.3,60.09889873
32,0,32,0,68.0291776,69.0296967,69.0296967,down,1,0.601138,None,-5,794647,1,2023-09-08_13h04.56.086,orientationdisctimination,2023.1.3,60.09889873
33,0,33,0,69.6632417,70.6634437,70.6634437,up,1,0.6160113,None,0,794647,1,2023-09-08_13h04.56.086,orientationdisctimination,2023.1.3,60.09889873
34,0,34,0,71.2969617,72.2972718,72.2972718,up,0,0.8932514,None,-4,794647,1,2023-09-08_13h04.56.086,orientationdisctimination,2023.1.3,60.09889873
35,0,35,0,73.2142803,74.2145935,74.2145935,up,0,0.7335385,None,-3,794647,1,2023-09-08_13h04.56.086,orientationdisctimination,2023.1.3,60.09889873
36,0,36,0,74.9647337,75.9648907,75.9648907,down,0,0.4112311,None,0,794647,1,2023-09-08_13h04.56.086,orientationdisctimination,2023.1.3,60.09889873
37,0,37,0,76.3982675,77.3986421,77.3986421,down,1,1.0121636,None,-5,794647,1,2023-09-08_13h04.56.086,orientationdisctimination,2023.1.3,60.09889873
38,0,38,0,78.4321994,79.4322705,79.4322705,up,1,0.6514418,None,0,794647,1,2023-09-08_13h04.56.086,orientationdisctimination,2023.1.3,60.09889873
39,0,39,0,80.1160659,81.1163072,81.1163072,up,1,0.7330155,None,0,794647,1,2023-09-08_13h04.56.086,orientationdisctimination,2023.1.3,60.09889873
40,0,40,0,81.8664396,82.8668991,82.8668991,down,1,0.6403651,None,-4,794647,1,2023-09-08_13h04.56.086,orientationdisctimination,2023.1.3,60.09889873
41,0,41,0,83.533618,84.5338858,84.5338858,up,1,0.4657713,None,0,794647,1,2023-09-08_13h04.56.086,orientationdisctimination,2023.1.3,60.09889873
42,0,42,0,85.0172876,86.0175142,86.0175142,down,1,0.883618,None,-3,794647,1,2023-09-08_13h04.56.086,orientationdisctimination,2023.1.3,60.09889873
43,0,43,0,86.9177901,87.9183334,87.9183334,up,1,0.5755673,None,0,794647,1,2023-09-08_13h04.56.086,orientationdisctimination,2023.1.3,60.09889873
44,0,44,0,88.5182526,89.5185615,89.5185615,down,0,0.598975,None,0,794647,1,2023-09-08_13h04.56.086,orientationdisctimination,2023.1.3,60.09889873
45,0,45,0,90.1352802,91.1355101,91.1355101,up,1,0.9469775,None,0,794647,1,2023-09-08_13h04.56.086,orientationdisctimination,2023.1.3,60.09889873
46,0,46,0,92.1027086,93.1029289,93.1029289,down,1,0.7993878,None,-2,794647,1,2023-09-08_13h04.56.086,orientationdisctimination,2023.1.3,60.09889873
47,0,47,0,93.9197038,94.9200456,94.9200456,up,1,0.6058526,None,0,794647,1,2023-09-08_13h04.56.086,orientationdisctimination,2023.1.3,60.09889873
48,0,48,0,95.5534749,96.5539271,96.5539271,down,1,0.5599388,None,-3,794647,1,2023-09-08_13h04.56.086,orientationdisctimination,2023.1.3,60.09889873
49,0,49,0,97.1372043,98.1375518,98.1375518,up,0,0.5343616,None,-2,794647,1,2023-09-08_13h04.56.086,orientationdisctimination,2023.1.3,60.09889873
50,0,50,0,98.7044415,99.7046462,99.7046462,down,1,0.5501306,None,-4,794647,1,2023-09-08_13h04.56.086,orientationdisctimination,2023.1.3,60.09889873
51,0,51,0,100.2714568,101.2718945,101.2718945,down,1,0.8733598,None,-5,794647,1,2023-09-08_13h04.56.086,orientationdisctimination,2023.1.3,60.09889873
52,0,52,0,102.1720038,103.1723001,103.1723001,down,1,0.8376856,None,-3,794647,1,2023-09-08_13h04.56.086,orientationdisctimination,2023.1.3,60.09889873
53,0,53,0,104.0392399,105.03943,105.03943,up,1,0.5027656,None,0,794647,1,2023-09-08_13h04.56.086,orientationdisctimination,2023.1.3,60.09889873
54,0,54,0,105.5729983,106.5732616,106.5732616,up,1,0.8312444,None,0,794647,1,2023-09-08_13h04.56.086,orientationdisctimination,2023.1.3,60.09889873
55,0,55,0,107.423404,108.4237666,108.4237666,down,1,0.7232244,None,-5,794647,1,2023-09-08_13h04.56.086,orientationdisctimination,2023.1.3,60.09889873
56,0,56,0,109.173917,110.1742847,110.1742847,up,0,0.8166203,None,-4,794647,1,2023-09-08_13h04.56.086,orientationdisctimination,2023.1.3,60.09889873
57,0,57,0,111.0078091,112.0081786,112.0081786,up,1,0.7463208,None,0,794647,1,2023-09-08_13h04.56.086,orientationdisctimination,2023.1.3,60.09889873
58,0,58,0,112.7749465,113.7751768,113.7751768,up,1,1.0914522,None,0,794647,1,2023-09-08_13h04.56.086,orientationdisctimination,2023.1.3,60.09889873
59,0,59,0,114.8920768,115.8923364,115.8923364,up,1,0.7926369,None,0,794647,1,2023-09-08_13h04.56.086,orientationdisctimination,2023.1.3,60.09889873
60,0,60,0,116.7093993,117.7096146,117.7096146,down,1,0.5334101,None,-5,794647,1,2023-09-08_13h04.56.086,orientationdisctimination,2023.1.3,60.09889873
61,0,61,0,118.2596042,119.2600889,119.2600889,up,1,0.7476336,None,0,794647,1,2023-09-08_13h04.56.086,orientationdisctimination,2023.1.3,60.09889873
62,0,62,0,120.026796,121.0272219,121.0272219,down,1,0.6638895,None,-4,794647,1,2023-09-08_13h04.56.086,orientationdisctimination,2023.1.3,60.09889873
63,0,63,0,121.7105774,122.7111166,122.7111166,down,1,0.8893967,None,-3,794647,1,2023-09-08_13h04.56.086,orientationdisctimination,2023.1.3,60.09889873
64,0,64,0,123.6278761,124.6281066,124.6281066,down,0,0.6312975,None,0,794647,1,2023-09-08_13h04.56.086,orientationdisctimination,2023.1.3,60.09889873
65,0,65,0,125.2782228,126.2784897,126.2784897,down,1,0.568465,None,-3,794647,1,2023-09-08_13h04.56.086,orientationdisctimination,2023.1.3,60.09889873
66,0,66,0,126.8786752,127.8789667,127.8789667,up,1,0.6980669,None,0,794647,1,2023-09-08_13h04.56.086,orientationdisctimination,2023.1.3,60.09889873
67,0,67,0,128.5959981,129.5961641,129.5961641,down,1,0.6180314,None,-3,794647,1,2023-09-08_13h04.56.086,orientationdisctimination,2023.1.3,60.09889873
68,0,68,0,130.2462403,131.2464422,131.2464422,up,0,0.7581647,None,-2,794647,1,2023-09-08_13h04.56.086,orientationdisctimination,2023.1.3,60.09889873
69,0,69,0,132.0301842,133.0303977,133.0303977,down,0,0.7432291,None,0,794647,1,2023-09-08_13h04.56.086,orientationdisctimination,2023.1.3,60.09889873
70,0,70,0,133.7972695,134.7975366,134.7975366,down,1,0.6646041,None,-2,794647,1,2023-09-08_13h04.56.086,orientationdisctimination,2023.1.3,60.09889873
71,0,71,0,135.4810864,136.4813701,136.4813701,up,1,0.6184679,None,0,794647,1,2023-09-08_13h04.56.086,orientationdisctimination,2023.1.3,60.09889873
72,0,72,0,137.1314903,138.1318351,138.1318351,up,1,0.5512737,None,0,794647,1,2023-09-08_13h04.56.086,orientationdisctimination,2023.1.3,60.09889873
73,0,73,0,138.7153125,139.7157232,139.7157232,up,1,0.5503739,None,0,794647,1,2023-09-08_13h04.56.086,orientationdisctimination,2023.1.3,60.09889873
74,0,74,0,140.2823728,141.2825549,141.2825549,up,0,0.6121676,None,-2,794647,1,2023-09-08_13h04.56.086,orientationdisctimination,2023.1.3,60.09889873
75,0,75,0,141.9160923,142.9163942,142.9163942,up,1,0.5120058,None,0,794647,1,2023-09-08_13h04.56.086,orientationdisctimination,2023.1.3,60.09889873
76,0,76,0,143.4498204,144.4501068,144.4501068,down,1,0.747222,None,-5,794647,1,2023-09-08_13h04.56.086,orientationdisctimination,2023.1.3,60.09889873
77,0,77,0,145.216993,146.2172547,146.2172547,up,0,0.5336493,None,-3,794647,1,2023-09-08_13h04.56.086,orientationdisctimination,2023.1.3,60.09889873
78,0,78,0,146.7674289,147.7677817,147.7677817,up,1,0.8078231,None,0,794647,1,2023-09-08_13h04.56.086,orientationdisctimination,2023.1.3,60.09889873
79,0,79,0,148.601089,149.601478,149.601478,down,1,0.6567785,None,-2,794647,1,2023-09-08_13h04.56.086,orientationdisctimination,2023.1.3,60.09889873
80,0,80,0,150.284991,151.2854671,151.2854671,up,0,0.635985,None,-5,794647,1,2023-09-08_13h04.56.086,orientationdisctimination,2023.1.3,60.09889873
81,0,81,0,151.9520683,152.9524379,152.9524379,down,0,0.6680321,None,0,794647,1,2023-09-08_13h04.56.086,orientationdisctimination,2023.1.3,60.09889873
82,0,82,0,153.6525717,154.6527822,154.6527822,down,0,1.0184208,None,0,794647,1,2023-09-08_13h04.56.086,orientationdisctimination,2023.1.3,60.09889873
83,0,83,0,155.7031807,156.7035665,156.7035665,up,0,0.6050301,None,-4,794647,1,2023-09-08_13h04.56.086,orientationdisctimination,2023.1.3,60.09889873
84,0,84,0,157.3368785,158.3372629,158.3372629,down,1,0.7570896,None,-5,794647,1,2023-09-08_13h04.56.086,orientationdisctimination,2023.1.3,60.09889873
85,0,85,0,159.1208309,160.1210678,160.1210678,up,0,0.9024355,None,-2,794647,1,2023-09-08_13h04.56.086,orientationdisctimination,2023.1.3,60.09889873
86,0,86,0,161.0546049,162.0549653,162.0549653,up,1,0.9100636,None,0,794647,1,2023-09-08_13h04.56.086,orientationdisctimination,2023.1.3,60.09889873
87,0,87,0,162.9884201,163.9888275,163.9888275,up,1,0.644768,None,0,794647,1,2023-09-08_13h04.56.086,orientationdisctimination,2023.1.3,60.09889873
88,0,88,0,164.6554973,165.6559393,165.6559393,up,1,0.5606288,None,0,794647,1,2023-09-08_13h04.56.086,orientationdisctimination,2023.1.3,60.09889873
89,0,89,0,166.2395061,167.2396798,167.2396798,up,1,0.7956855,None,0,794647,1,2023-09-08_13h04.56.086,orientationdisctimination,2023.1.3,60.09889873
90,0,90,0,168.0563776,169.0568977,169.0568977,down,1,0.6291305,None,-5,794647,1,2023-09-08_13h04.56.086,orientationdisctimination,2023.1.3,60.09889873
91,0,91,0,169.7068951,170.7072031,170.7072031,up,1,0.6511611,None,0,794647,1,2023-09-08_13h04.56.086,orientationdisctimination,2023.1.3,60.09889873
92,0,92,0,171.3910828,172.3910954,172.3910954,up,1,0.6422396,None,0,794647,1,2023-09-08_13h04.56.086,orientationdisctimination,2023.1.3,60.09889873
93,0,93,0,173.0578053,174.0580343,174.0580343,up,0,0.5032457,None,-2,794647,1,2023-09-08_13h04.56.086,orientationdisctimination,2023.1.3,60.09889873
94,0,94,0,174.5918212,175.5918905,175.5918905,up,1,0.7882377,None,0,794647,1,2023-09-08_13h04.56.086,orientationdisctimination,2023.1.3,60.09889873
95,0,95,0,176.4087177,177.409041,177.409041,down,0,0.4335586,None,0,794647,1,2023-09-08_13h04.56.086,orientationdisctimination,2023.1.3,60.09889873
96,0,96,0,177.8590007,178.8593954,178.8593954,down,1,1.0602386,None,-2,794647,1,2023-09-08_13h04.56.086,orientationdisctimination,2023.1.3,60.09889873
97,0,97,0,179.9431752,180.9435128,180.9435128,down,1,0.6188804,None,-5,794647,1,2023-09-08_13h04.56.086,orientationdisctimination,2023.1.3,60.09889873
98,0,98,0,181.5935897,182.5939971,182.5939971,up,1,0.5773464,None,0,794647,1,2023-09-08_13h04.56.086,orientationdisctimination,2023.1.3,60.09889873
99,0,99,0,183.1939065,184.1942219,184.1942219,down,1,0.8771723,None,-2,794647,1,2023-09-08_13h04.56.086,orientationdisctimination,2023.1.3,60.09889873
